File: diffraction/KCl.csv
KCl,
2θ - °,Intensity - cps
10,6906.7
10.05,7320
10.1,6933.3
10.15,6786.7
10.2,6693.3
10.25,6746.7
10.3,6960
10.35,6760
10.4,7066.7
10.45,6746.7
10.5,6653.3
10.55,7173.3
10.6,6733.3
10.65,6920
10.7,6720
10.75,6520
10.8,6826.7
10.85,6946.7
10.9,6840
10.95,6333.3
11,6360
11.05,6920
11.1,6640
11.15,7040
11.2,6253.3
11.25,6666.7
11.3,6560
11.35,6706.7
11.4,7053.3
11.45,6786.7
11.5,6893.3
11.55,6613.3
11.6,6853.3
11.65,6346.7
11.7,7066.7
11.75,7066.7
11.8,7013.3
11.85,6680
11.9,6613.3
11.95,6440
12,7066.7
12.05,6800
12.1,6560
12.15,6720
12.2,7040
12.25,7013.3
12.3,7093.3
12.35,6640
12.4,7146.7
12.45,6840
12.5,6226.7
12.55,6733.3
12.6,6680
12.65,6826.7
12.7,6906.7
12.75,6973.3
12.8,6613.3
12.85,6546.7
12.9,6760
12.95,6440
13,7066.7
13.05,6506.7
13.1,6480
13.15,7080
13.2,7040
13.25,6760
13.3,6840
13.35,6346.7
13.4,6546.7
13.45,6933.3
13.5,6880
13.55,6600
13.6,6413.3
13.65,6026.7
13.7,6560
13.75,6533.3
13.8,7093.3
13.85,6426.7
13.9,6840
13.95,6973.3
14,7213.3
14.05,6760
14.1,7013.3
14.15,6506.7
14.2,6813.3
14.25,6520
14.3,6373.3
14.35,6973.3
14.4,6360
14.45,6466.7
14.5,6546.7
14.55,6746.7
14.6,6546.7
14.65,6466.7
14.7,6653.3
14.75,6533.3
14.8,7200
14.85,6680
14.9,7053.3
14.95,6480
15,6600
15.05,6413.3
15.1,6600
15.15,6346.7
15.2,6760
15.25,6840
15.3,6533.3
15.35,6626.7
15.4,6853.3
15.45,7066.7
15.5,6626.7
15.55,6893.3
15.6,7053.3
15.65,6546.7
15.7,6453.3
15.75,6746.7
15.8,6826.7
15.85,6986.7
15.9,6653.3
15.95,6306.7
16,7013.3
16.05,6986.7
16.1,6480
16.15,6560
16.2,6946.7
16.25,6760
16.3,7013.3
16.35,6666.7
16.4,6906.7
16.45,6480
16.5,6320
16.55,6426.7
16.6,6720
16.65,6413.3
16.7,6293.3
16.75,6813.3
16.8,6480
16.85,6826.7
16.9,6333.3
16.95,6586.7
17,6666.7
17.05,6760
17.1,6693.3
17.15,6520
17.2,6613.3
17.25,6560
17.3,6493.3
17.35,6146.7
17.4,6413.3
17.45,6320
17.5,6680
17.55,6680
17.6,6493.3
17.65,6520
17.7,6773.3
17.75,6346.7
17.8,6546.7
17.85,6453.3
17.9,6080
17.95,6133.3
18,6640
18.05,6120
18.1,6066.7
18.15,6786.7
18.2,6040
18.25,6373.3
18.3,6866.7
18.35,6453.3
18.4,6293.3
18.45,6680
18.5,6800
18.55,6773.3
18.6,6173.3
18.65,6266.7
18.7,6173.3
18.75,6360
18.8,6573.3
18.85,6120
18.9,6040
18.95,6560
19,5920
19.05,6373.3
19.1,6200
19.15,6200
19.2,6693.3
19.25,6253.3
19.3,6586.7
19.35,6346.7
19.4,5933.3
19.45,6480
19.5,6373.3
19.55,5746.7
19.6,6613.3
19.65,6320
19.7,6040
19.75,6200
19.8,6520
19.85,6173.3
19.9,6226.7
19.95,6173.3
20,6240
20.05,6453.3
20.1,5706.7
20.15,6360
20.2,6426.7
20.25,6213.3
20.3,6293.3
20.35,6373.3
20.4,6213.3
20.45,6253.3
20.5,6120
20.55,6026.7
20.6,6306.7
20.65,6000
20.7,5813.3
20.75,6306.7
20.8,6000
20.85,6160
20.9,6146.7
20.95,5906.7
21,6320
21.05,6386.7
21.1,5866.7
21.15,6266.7
21.2,5760
21.25,5920
21.3,5946.7
21.35,5986.7
21.4,5920
21.45,6026.7
21.5,6040
21.55,6133.3
21.6,6146.7
21.65,6066.7
21.7,5973.3
21.75,5840
21.8,6026.7
21.85,5600
21.9,6053.3
21.95,6040
22,5920
22.05,5933.3
22.1,5813.3
22.15,6133.3
22.2,5986.7
22.25,6186.7
22.3,5920
22.35,6066.7
22.4,5493.3
22.45,5733.3
22.5,5840
22.55,5733.3
22.6,5733.3
22.65,5706.7
22.7,5893.3
22.75,5253.3
22.8,5640
22.85,6053.3
22.9,6106.7
22.95,5720
23,5546.7
23.05,5880
23.1,5426.7
23.15,5666.7
23.2,5746.7
23.25,5266.7
23.3,5733.3
23.35,5613.3
23.4,5533.3
23.45,5293.3
23.5,5866.7
23.55,5826.7
23.6,5546.7
23.65,5546.7
23.7,5520
23.75,5413.3
23.8,5653.3
23.85,5506.7
23.9,5493.3
23.95,5400
24,5240
24.05,5253.3
24.1,5546.7
24.15,5613.3
24.2,5146.7
24.25,5706.7
24.3,5306.7
24.35,5013.3
24.4,5413.3
24.45,4826.7
24.5,5306.7
24.55,5026.7
24.6,4906.7
24.65,5053.3
24.7,5280
24.75,4960
24.8,5133.3
24.85,4960
24.9,5173.3
24.95,4826.7
25,5306.7
25.05,4973.3
25.1,5493.3
25.15,5080
25.2,4946.7
25.25,5266.7
25.3,5040
25.35,4800
25.4,5186.7
25.45,5200
25.5,4720
25.55,4800
25.6,5080
25.65,4893.3
25.7,4746.7
25.75,5000
25.8,4586.7
25.85,4866.7
25.9,4786.7
25.95,4733.3
26,4613.3
26.05,4693.3
26.1,4640
26.15,4706.7
26.2,4786.7
26.25,5120
26.3,4706.7
26.35,4760
26.4,4453.3
26.45,4720
26.5,4933.3
26.55,4880
26.6,4933.3
26.65,5146.7
26.7,4680
26.75,4386.7
26.8,4546.7
26.85,4253.3
26.9,4253.3
26.95,4453.3
27,4826.7
27.05,4240
27.1,4746.7
27.15,4706.7
27.2,4653.3
27.25,4346.7
27.3,4706.7
27.35,4253.3
27.4,4173.3
27.45,4853.3
27.5,4720
27.55,4573.3
27.6,4720
27.65,4693.3
27.7,4733.3
27.75,4893.3
27.8,4733.3
27.85,4520
27.9,4773.3
27.95,5026.7
28,4773.3
28.05,5160
28.1,5186.7
28.15,5306.7
28.2,5986.7
28.25,7346.7
28.3,10547
28.35,18133
28.4,27280
28.45,37013
28.5,46480
28.55,40773
28.6,28387
28.65,15987
28.7,8946.7
28.75,6653.3
28.8,5200
28.85,5120
28.9,4720
28.95,4400
29,4893.3
29.05,4640
29.1,4240
29.15,4253.3
29.2,4640
29.25,4480
29.3,4373.3
29.35,4266.7
29.4,4666.7
29.45,4253.3
29.5,3706.7
29.55,4200
29.6,4413.3
29.65,4386.7
29.7,4213.3
29.75,4133.3
29.8,4426.7
29.85,4146.7
29.9,4293.3
29.95,3826.7
30,3960
30.05,4440
30.1,4173.3
30.15,4053.3
30.2,4053.3
30.25,4106.7
30.3,4293.3
30.35,4120
30.4,4053.3
30.45,4266.7
30.5,4226.7
30.55,4146.7
30.6,4013.3
30.65,4080
30.7,4200
30.75,4093.3
30.8,4120
30.85,4120
30.9,3773.3
30.95,3893.3
31,3840
31.05,4013.3
31.1,3866.7
31.15,3840
31.2,3746.7
31.25,3693.3
31.3,3800
31.35,3973.3
31.4,3946.7
31.45,3693.3
31.5,4000
31.55,3733.3
31.6,3920
31.65,3933.3
31.7,3933.3
31.75,4266.7
31.8,3960
31.85,4146.7
31.9,3893.3
31.95,3840
32,3866.7
32.05,3680
32.1,3773.3
32.15,3986.7
32.2,3466.7
32.25,3720
32.3,3786.7
32.35,3693.3
32.4,3560
32.45,3746.7
32.5,3693.3
32.55,3786.7
32.6,3720
32.65,3653.3
32.7,3626.7
32.75,3720
32.8,3813.3
32.85,3666.7
32.9,3640
32.95,3466.7
33,3760
33.05,3440
33.1,3813.3
33.15,3320
33.2,3386.7
33.25,3680
33.3,3573.3
33.35,3773.3
33.4,3733.3
33.45,3400
33.5,3746.7
33.55,3946.7
33.6,3506.7
33.65,3253.3
33.7,3626.7
33.75,3573.3
33.8,3720
33.85,3546.7
33.9,3466.7
33.95,3733.3
34,3453.3
34.05,3400
34.1,3333.3
34.15,3586.7
34.2,3533.3
34.25,3586.7
34.3,3360
34.35,3506.7
34.4,3333.3
34.45,3386.7
34.5,3693.3
34.55,3120
34.6,3173.3
34.65,3613.3
34.7,3493.3
34.75,3573.3
34.8,3653.3
34.85,3506.7
34.9,3400
34.95,3306.7
35,3413.3
35.05,3413.3
35.1,3386.7
35.15,3360
35.2,3573.3
35.25,3240
35.3,3133.3
35.35,3493.3
35.4,3733.3
35.45,3333.3
35.5,3320
35.55,3480
35.6,3133.3
35.65,3080
35.7,3226.7
35.75,3200
35.8,3360
35.85,3226.7
35.9,3480
35.95,3453.3
36,3613.3
36.05,3333.3
36.1,3506.7
36.15,3373.3
36.2,3293.3
36.25,3293.3
36.3,3560
36.35,3480
36.4,3413.3
36.45,3346.7
36.5,3306.7
36.55,2920
36.6,3320
36.65,3373.3
36.7,3453.3
36.75,3613.3
36.8,3600
36.85,3360
36.9,3520
36.95,3280
37,3426.7
37.05,3426.7
37.1,3293.3
37.15,3306.7
37.2,3426.7
37.25,3493.3
37.3,3253.3
37.35,3053.3
37.4,3253.3
37.45,3160
37.5,3413.3
37.55,3173.3
37.6,3240
37.65,3400
37.7,3493.3
37.75,3346.7
37.8,3306.7
37.85,3133.3
37.9,3186.7
37.95,3226.7
38,3320
38.05,3560
38.1,3240
38.15,3173.3
38.2,3213.3
38.25,3040
38.3,3160
38.35,3320
38.4,3226.7
38.45,3186.7
38.5,3120
38.55,3320
38.6,3453.3
38.65,3106.7
38.7,3253.3
38.75,3133.3
38.8,3120
38.85,3466.7
38.9,3226.7
38.95,3186.7
39,3333.3
39.05,3160
39.1,3213.3
39.15,3426.7
39.2,3240
39.25,3213.3
39.3,3293.3
39.35,3386.7
39.4,3266.7
39.45,3480
39.5,3520
39.55,3453.3
39.6,3306.7
39.65,3306.7
39.7,3293.3
39.75,3360
39.8,3333.3
39.85,3253.3
39.9,3226.7
39.95,3560
40,3480
40.05,3573.3
40.1,3280
40.15,3386.7
40.2,3706.7
40.25,3813.3
40.3,4013.3
40.35,4160
40.4,4826.7
40.45,5933.3
40.5,8386.7
40.55,15027
40.6,23373
40.65,31293
40.7,29000
40.75,24200
40.8,16467
40.85,9666.7
40.9,5973.3
40.95,4613.3
41,3773.3
41.05,3946.7
41.1,3853.3
41.15,3386.7
41.2,3733.3
41.25,3280
41.3,3413.3
41.35,3186.7
41.4,3133.3
41.45,3440
41.5,3346.7
41.55,3373.3
41.6,3093.3
41.65,3333.3
41.7,2906.7
41.75,3173.3
41.8,3146.7
41.85,3120
41.9,3253.3
41.95,3186.7
42,3360
42.05,3426.7
42.1,3186.7
42.15,3013.3
42.2,3173.3
42.25,3293.3
42.3,2853.3
42.35,3240
42.4,3306.7
42.45,3173.3
42.5,3520
42.55,3053.3
42.6,3213.3
42.65,3293.3
42.7,3480
42.75,3360
42.8,3506.7
42.85,3533.3
42.9,3053.3
42.95,3386.7
43,2946.7
43.05,3266.7
43.1,3213.3
43.15,3480
43.2,2986.7
43.25,3080
43.3,3266.7
43.35,3333.3
43.4,3520
43.45,3173.3
43.5,3146.7
43.55,3200
43.6,3160
43.65,3173.3
43.7,3280
43.75,3053.3
43.8,2960
43.85,3066.7
43.9,3066.7
43.95,2986.7
44,3106.7
44.05,3080
44.1,3066.7
44.15,3200
44.2,3040
44.25,3400
44.3,3080
44.35,2946.7
44.4,3480
44.45,3040
44.5,3066.7
44.55,3000
44.6,2893.3
44.65,2880
44.7,3146.7
44.75,2933.3
44.8,3040
44.85,3160
44.9,3120
44.95,3013.3
45,2986.7
45.05,2893.3
45.1,3106.7
45.15,3160
45.2,3120
45.25,3160
45.3,2906.7
45.35,2800
45.4,2973.3
45.45,3213.3
45.5,3226.7
45.55,2866.7
45.6,2920
45.65,3066.7
45.7,3293.3
45.75,2826.7
45.8,2826.7
45.85,2706.7
45.9,3093.3
45.95,3026.7
46,3200
46.05,3146.7
46.1,2773.3
46.15,3173.3
46.2,3160
46.25,3120
46.3,3173.3
46.35,3026.7
46.4,2893.3
46.45,2906.7
46.5,3093.3
46.55,3000
46.6,2893.3
46.65,2760
46.7,2946.7
46.75,2986.7
46.8,2920
46.85,3053.3
46.9,2880
46.95,2773.3
47,2906.7
47.05,2800
47.1,3146.7
47.15,3000
47.2,3133.3
47.25,2720
47.3,2840
47.35,2933.3
47.4,3053.3
47.45,2746.7
47.5,2786.7
47.55,3120
47.6,2786.7
47.65,2640
47.7,3040
47.75,2826.7
47.8,2893.3
47.85,3093.3
47.9,2946.7
47.95,3306.7
48,3226.7
48.05,3360
48.1,2906.7
48.15,3426.7
48.2,3040
48.25,2866.7
48.3,2640
48.35,3066.7
48.4,2973.3
48.45,3106.7
48.5,2986.7
48.55,2906.7
48.6,3146.7
48.65,2573.3
48.7,2826.7
48.75,2906.7
48.8,2906.7
48.85,3053.3
48.9,2906.7
48.95,2773.3
49,3080
49.05,3026.7
49.1,3120
49.15,2960
49.2,2800
49.25,2706.7
49.3,2813.3
49.35,2933.3
49.4,2946.7
49.45,2653.3
49.5,3066.7
49.55,2773.3
49.6,2933.3
49.65,3080
49.7,2946.7
49.75,2826.7
49.8,3040
49.85,2880
49.9,3053.3
49.95,3200
50,3080
50.05,3306.7
50.1,3893.3
50.15,4666.7
50.2,6173.3
50.25,8093.3
50.3,10667
50.35,10480
50.4,8306.7
50.45,7706.7
50.5,5946.7
50.55,4493.3
50.6,3693.3
50.65,3120
50.7,3066.7
50.75,3026.7
50.8,2920
50.85,2586.7
50.9,3000
50.95,2960
51,2986.7
51.05,3000
51.1,2773.3
51.15,2933.3
51.2,2973.3
51.25,3013.3
51.3,3000
51.35,2880
51.4,2800
51.45,2920
51.5,2986.7
51.55,3173.3
51.6,2920
51.65,2600
51.7,2826.7
51.75,2786.7
51.8,2906.7
51.85,2986.7
51.9,3080
51.95,2720
52,2946.7
52.05,2666.7
52.1,2613.3
52.15,3093.3
52.2,2880
52.25,2853.3
52.3,2946.7
52.35,2986.7
52.4,2666.7
52.45,2960
52.5,2973.3
52.55,2826.7
52.6,2786.7
52.65,2800
52.7,2680
52.75,2986.7
52.8,2920
52.85,3013.3
52.9,2826.7
52.95,2653.3
53,2906.7
53.05,3026.7
53.1,2960
53.15,2733.3
53.2,2880
53.25,2760
53.3,2920
53.35,2573.3
53.4,2866.7
53.45,2600
53.5,2640
53.55,2733.3
53.6,3013.3
53.65,2960
53.7,2773.3
53.75,2960
53.8,2720
53.85,2786.7
53.9,2933.3
53.95,2760
54,2893.3
54.05,2840
54.1,2933.3
54.15,2680
54.2,2760
54.25,2800
54.3,2760
54.35,3160
54.4,2826.7
54.45,3013.3
54.5,2826.7
54.55,2853.3
54.6,2800
54.65,2533.3
54.7,2840
54.75,2773.3
54.8,3080
54.85,3026.7
54.9,3306.7
54.95,2946.7
55,2706.7
55.05,2973.3
55.1,2626.7
55.15,2920
55.2,3026.7
55.25,2973.3
55.3,2840
55.35,2693.3
55.4,3040
55.45,2493.3
55.5,2973.3
55.55,2786.7
55.6,2626.7
55.65,2853.3
55.7,2786.7
55.75,2960
55.8,2960
55.85,2653.3
55.9,2973.3
55.95,2826.7
56,2560
56.05,2786.7
56.1,3026.7
56.15,3146.7
56.2,2800
56.25,2733.3
56.3,3013.3
56.35,2920
56.4,2813.3
56.45,2760
56.5,3000
56.55,2786.7
56.6,2853.3
56.65,2653.3
56.7,2680
56.75,2986.7
56.8,2866.7
56.85,3040
56.9,2746.7
56.95,2893.3
57,3106.7
57.05,3280
57.1,2786.7
57.15,2960
57.2,2693.3
57.25,2746.7
57.3,3080
57.35,2933.3
57.4,2840
57.45,3106.7
57.5,3040
57.55,2893.3
57.6,2853.3
57.65,3093.3
57.7,3040
57.75,3133.3
57.8,3000
57.85,2760
57.9,2680
57.95,2946.7
58,2853.3
58.05,3120
58.1,2626.7
58.15,2853.3
58.2,2920
58.25,2906.7
58.3,3160
58.35,2786.7
58.4,2920
58.45,2946.7
58.5,3173.3
58.55,3693.3
58.6,4146.7
58.65,5293.3
58.7,6840
58.75,8226.7
58.8,8333.3
58.85,7013.3
58.9,6146.7
58.95,5426.7
59,4560
59.05,3626.7
59.1,3320
59.15,3053.3
59.2,3080
59.25,3226.7
59.3,3226.7
59.35,2946.7
59.4,2986.7
59.45,2840
59.5,2866.7
59.55,3106.7
59.6,3133.3
59.65,2773.3
59.7,2706.7
59.75,2986.7
59.8,2920
59.85,2866.7
59.9,2760
59.95,2626.7
60,2680
60.05,2986.7
60.1,2946.7
60.15,3253.3
60.2,3160
60.25,3066.7
60.3,2840
60.35,3053.3
60.4,2880
60.45,2773.3
60.5,2773.3
60.55,2933.3
60.6,2866.7
60.65,2746.7
60.7,2773.3
60.75,2800
60.8,2640
60.85,2786.7
60.9,2666.7
60.95,2706.7
61,3146.7
61.05,2666.7
61.1,3013.3
61.15,2706.7
61.2,2706.7
61.25,2706.7
61.3,2840
61.35,2760
61.4,2800
61.45,2640
61.5,3093.3
61.55,2960
61.6,2840
61.65,2386.7
61.7,2760
61.75,2453.3
61.8,2693.3
61.85,2880
61.9,2760
61.95,2746.7
62,2800
62.05,2706.7
62.1,3013.3
62.15,2853.3
62.2,2773.3
62.25,2653.3
62.3,2866.7
62.35,2573.3
62.4,2520
62.45,2986.7
62.5,2906.7
62.55,3120
62.6,2600
62.65,2760
62.7,2786.7
62.75,3000
62.8,2760
62.85,2626.7
62.9,2853.3
62.95,2680
63,2493.3
63.05,2946.7
63.1,2773.3
63.15,2600
63.2,2746.7
63.25,2773.3
63.3,2506.7
63.35,2746.7
63.4,2746.7
63.45,2746.7
63.5,2840
63.55,2906.7
63.6,2760
63.65,2666.7
63.7,2493.3
63.75,2680
63.8,2760
63.85,2573.3
63.9,3066.7
63.95,2893.3
64,2826.7
64.05,2733.3
64.1,2933.3
64.15,2573.3
64.2,2706.7
64.25,2866.7
64.3,2693.3
64.35,2693.3
64.4,2720
64.45,2560
64.5,2813.3
64.55,2986.7
64.6,2973.3
64.65,2786.7
64.7,2666.7
64.75,2960
64.8,2680
64.85,3053.3
64.9,2880
64.95,2613.3
65,2600
65.05,2986.7
65.1,2933.3
65.15,2600
65.2,2733.3
65.25,2720
65.3,2986.7
65.35,2773.3
65.4,2986.7
65.45,2800
65.5,3133.3
65.55,3053.3
65.6,2893.3
65.65,2946.7
65.7,2960
65.75,2866.7
65.8,2800
65.85,2986.7
65.9,3000
65.95,3360
66,3040
66.05,3346.7
66.1,3173.3
66.15,3493.3
66.2,3893.3
66.25,4146.7
66.3,4986.7
66.35,7146.7
66.4,11813
66.45,19827
66.5,30333
66.55,30667
66.6,20787
66.65,15813
66.7,18440
66.75,15280
66.8,8373.3
66.85,4800
66.9,3933.3
66.95,3386.7
67,2920
67.05,3266.7
67.1,3226.7
67.15,3213.3
67.2,3026.7
67.25,2933.3
67.3,2800
67.35,2840
67.4,3080
67.45,2720
67.5,2813.3
67.55,2720
67.6,2746.7
67.65,3080
67.7,2893.3
67.75,2973.3
67.8,2960
67.85,2813.3
67.9,3013.3
67.95,2933.3
68,2586.7
68.05,2440
68.1,2680
68.15,2733.3
68.2,2986.7
68.25,2640
68.3,2826.7
68.35,2880
68.4,2706.7
68.45,2613.3
68.5,2680
68.55,2773.3
68.6,2506.7
68.65,2426.7
68.7,2840
68.75,2653.3
68.8,2613.3
68.85,2786.7
68.9,2573.3
68.95,2733.3
69,2520
69.05,2546.7
69.1,2866.7
69.15,2466.7
69.2,3040
69.25,2773.3
69.3,2720
69.35,2666.7
69.4,2666.7
69.45,2720
69.5,2600
69.55,2866.7
69.6,2760
69.65,2546.7
69.7,2746.7
69.75,2613.3
69.8,2466.7
69.85,2746.7
69.9,2706.7
69.95,2520
70,2773.3
70.05,2520
70.1,2666.7
70.15,2546.7
70.2,2306.7
70.25,2666.7
70.3,2506.7
70.35,2560
70.4,2733.3
70.45,2533.3
70.5,2520
70.55,2813.3
70.6,2640
70.65,2680
70.7,2626.7
70.75,2400
70.8,2760
70.85,2560
70.9,2573.3
70.95,2520
71,2746.7
71.05,2573.3
71.1,2666.7
71.15,2400
71.2,2666.7
71.25,2240
71.3,2386.7
71.35,2426.7
71.4,2466.7
71.45,2520
71.5,2533.3
71.55,2573.3
71.6,2440
71.65,2600
71.7,2653.3
71.75,2306.7
71.8,2773.3
71.85,2506.7
71.9,2680
71.95,2653.3
72,2280
72.05,2506.7
72.1,2546.7
72.15,2560
72.2,2533.3
72.25,2266.7
72.3,2440
72.35,2453.3
72.4,2400
72.45,2600
72.5,2373.3
72.55,2346.7
72.6,2653.3
72.65,2586.7
72.7,2266.7
72.75,2480
72.8,2453.3
72.85,2240
72.9,2400
72.95,2760
73,2466.7
73.05,2653.3
73.1,2653.3
73.15,2560
73.2,2613.3
73.25,2666.7
73.3,2533.3
73.35,2760
73.4,2546.7
73.45,2560
73.5,2773.3
73.55,2786.7
73.6,3226.7
73.65,4480
73.7,6573.3
73.75,9440
73.8,10253
73.85,10800
73.9,8866.7
73.95,7613.3
74,6866.7
74.05,6440
74.1,5613.3
74.15,4093.3
74.2,3213.3
74.25,2933.3
74.3,2880
74.35,2306.7
74.4,2440
74.45,2346.7
74.5,2413.3
74.55,2413.3
74.6,2546.7
74.65,2346.7
74.7,2373.3
74.75,2093.3
74.8,2200
74.85,2400
74.9,2293.3
74.95,2360
75,2213.3
75.05,2280
75.1,2266.7
75.15,2240
75.2,2386.7
75.25,2120
75.3,2240
75.35,2306.7
75.4,2160
75.45,2293.3
75.5,2320
75.55,2546.7
75.6,2213.3
75.65,2133.3
75.7,2106.7
75.75,2253.3
75.8,2226.7
75.85,2240
75.9,2066.7
75.95,1960
76,1986.7
76.05,2066.7
76.1,2306.7
76.15,2426.7
76.2,2160
76.25,2026.7
76.3,2160
76.35,2080
76.4,2293.3
76.45,2066.7
76.5,2226.7
76.55,2173.3
76.6,2080
76.65,1986.7
76.7,1960
76.75,2333.3
76.8,2040
76.85,2346.7
76.9,2093.3
76.95,2413.3
77,2080
77.05,2146.7
77.1,2093.3
77.15,2160
77.2,2160
77.25,2200
77.3,2160
77.35,2320
77.4,2186.7
77.45,2120
77.5,2066.7
77.55,2080
77.6,2093.3
77.65,1826.7
77.7,2320
77.75,2120
77.8,1906.7
77.85,1973.3
77.9,1946.7
77.95,1840
78,2066.7
78.05,2186.7
78.1,1960
78.15,2093.3
78.2,1986.7
78.25,2173.3
78.3,1946.7
78.35,1853.3
78.4,2253.3
78.45,2080
78.5,1906.7
78.55,2200
78.6,2186.7
78.65,1973.3
78.7,1893.3
78.75,1893.3
78.8,2093.3
78.85,2133.3
78.9,2026.7
78.95,1893.3
79,1960
79.05,2106.7
79.1,2186.7
79.15,2093.3
79.2,2053.3
79.25,1933.3
79.3,2080
79.35,2213.3
79.4,2013.3
79.45,1853.3
79.5,2053.3
79.55,1880
79.6,2293.3
79.65,2053.3
79.7,2066.7
79.75,1933.3
79.8,1813.3
79.85,1946.7
79.9,2080
79.95,2066.7
80,2120