File: diffraction/.ipynb_checkpoints/NaCl-checkpoint.csv
NaCl,,Be Pd,,,Cd Ga2 Se4,,
2θ - °,Intensity - cps,2θ - °,Y,Intensity - cps,2θ - °,Y,Intensity - cps
10,6746.7,31.78508,0,4003.008,27.36702,0,4752.298
10.05,6853.3,56.62683,0,20919.84,45.44875,0,6225.651
10.1,7106.7,,,,66.22826,0,2862.217
10.15,6733.3,,,,75.29351,0,2618.924
10.2,6960,,,,,,
10.25,6826.7,,,,,,
10.3,7026.7,,,,,,
10.35,6800,,,,,,
10.4,6800,,,,,,
10.45,6893.3,,,,,,
10.5,7200,,,,,,
10.55,6946.7,,,,,,
10.6,6906.7,,,,,,
10.65,7040,,,,,,
10.7,7506.7,,,,,,
10.75,7066.7,,,,,,
10.8,7200,,,,,,
10.85,7293.3,,,,,,
10.9,7360,,,,,,
10.95,7173.3,,,,,,
11,6946.7,,,,,,
11.05,6613.3,,,,,,
11.1,6920,,,,,,
11.15,6853.3,,,,,,
11.2,6866.7,,,,,,
11.25,6893.3,,,,,,
11.3,7093.3,,,,,,
11.35,7413.3,,,,,,
11.4,7106.7,,,,,,
11.45,7306.7,,,,,,
11.5,6880,,,,,,
11.55,7000,,,,,,
11.6,7320,,,,,,
11.65,6706.7,,,,,,
11.7,6893.3,,,,,,
11.75,7173.3,,,,,,
11.8,7466.7,,,,,,
11.85,7133.3,,,,,,
11.9,7093.3,,,,,,
11.95,6893.3,,,,,,
12,7253.3,,,,,,
12.05,7213.3,,,,,,
12.1,6893.3,,,,,,
12.15,7200,,,,,,
12.2,6946.7,,,,,,
12.25,7386.7,,,,,,
12.3,7133.3,,,,,,
12.35,6746.7,,,,,,
12.4,7253.3,,,,,,
12.45,6786.7,,,,,,
12.5,7226.7,,,,,,
12.55,7026.7,,,,,,
12.6,6906.7,,,,,,
12.65,6933.3,,,,,,
12.7,6986.7,,,,,,
12.75,6933.3,,,,,,
12.8,7800,,,,,,
12.85,7066.7,,,,,,
12.9,7520,,,,,,
12.95,7040,,,,,,
13,7040,,,,,,
13.05,7026.7,,,,,,
13.1,6920,,,,,,
13.15,7026.7,,,,,,
13.2,7026.7,,,,,,
13.25,7426.7,,,,,,
13.3,7240,,,,,,
13.35,7053.3,,,,,,
13.4,6746.7,,,,,,
13.45,7133.3,,,,,,
13.5,6520,,,,,,
13.55,6986.7,,,,,,
13.6,7173.3,,,,,,
13.65,7533.3,,,,,,
13.7,7133.3,,,,,,
13.75,7266.7,,,,,,
13.8,6973.3,,,,,,
13.85,6786.7,,,,,,
13.9,6813.3,,,,,,
13.95,7160,,,,,,
14,6866.7,,,,,,
14.05,6906.7,,,,,,
14.1,6960,,,,,,
14.15,7040,,,,,,
14.2,7080,,,,,,
14.25,6946.7,,,,,,
14.3,7213.3,,,,,,
14.35,7360,,,,,,
14.4,6733.3,,,,,,
14.45,6826.7,,,,,,
14.5,7346.7,,,,,,
14.55,6840,,,,,,
14.6,6880,,,,,,
14.65,6986.7,,,,,,
14.7,6840,,,,,,
14.75,7000,,,,,,
14.8,7253.3,,,,,,
14.85,7000,,,,,,
14.9,7000,,,,,,
14.95,7360,,,,,,
15,6946.7,,,,,,
15.05,7173.3,,,,,,
15.1,7160,,,,,,
15.15,6706.7,,,,,,
15.2,7426.7,,,,,,
15.25,6893.3,,,,,,
15.3,7346.7,,,,,,
15.35,6760,,,,,,
15.4,6906.7,,,,,,
15.45,7066.7,,,,,,
15.5,6960,,,,,,
15.55,7213.3,,,,,,
15.6,7226.7,,,,,,
15.65,7093.3,,,,,,
15.7,6746.7,,,,,,
15.75,6946.7,,,,,,
15.8,7040,,,,,,
15.85,7053.3,,,,,,
15.9,7053.3,,,,,,
15.95,7280,,,,,,
16,7266.7,,,,,,
16.05,7186.7,,,,,,
16.1,7240,,,,,,
16.15,7253.3,,,,,,
16.2,7146.7,,,,,,
16.25,6573.3,,,,,,
16.3,7400,,,,,,
16.35,7226.7,,,,,,
16.4,6613.3,,,,,,
16.45,6853.3,,,,,,
16.5,7080,,,,,,
16.55,7040,,,,,,
16.6,6786.7,,,,,,
16.65,7013.3,,,,,,
16.7,6746.7,,,,,,
16.75,6960,,,,,,
16.8,6946.7,,,,,,
16.85,6906.7,,,,,,
16.9,6986.7,,,,,,
16.95,6733.3,,,,,,
17,7133.3,,,,,,
17.05,6733.3,,,,,,
17.1,7253.3,,,,,,
17.15,7000,,,,,,
17.2,6906.7,,,,,,
17.25,6800,,,,,,
17.3,7320,,,,,,
17.35,7066.7,,,,,,
17.4,6653.3,,,,,,
17.45,6813.3,,,,,,
17.5,7253.3,,,,,,
17.55,7306.7,,,,,,
17.6,6680,,,,,,
17.65,6826.7,,,,,,
17.7,7066.7,,,,,,
17.75,6826.7,,,,,,
17.8,7026.7,,,,,,
17.85,6866.7,,,,,,
17.9,7146.7,,,,,,
17.95,6746.7,,,,,,
18,6546.7,,,,,,
18.05,7026.7,,,,,,
18.1,7013.3,,,,,,
18.15,6933.3,,,,,,
18.2,6266.7,,,,,,
18.25,6400,,,,,,
18.3,6933.3,,,,,,
18.35,6586.7,,,,,,
18.4,6853.3,,,,,,
18.45,6986.7,,,,,,
18.5,6773.3,,,,,,
18.55,6893.3,,,,,,
18.6,6480,,,,,,
18.65,6560,,,,,,
18.7,6666.7,,,,,,
18.75,6680,,,,,,
18.8,6720,,,,,,
18.85,6706.7,,,,,,
18.9,6666.7,,,,,,
18.95,7053.3,,,,,,
19,6413.3,,,,,,
19.05,6973.3,,,,,,
19.1,6880,,,,,,
19.15,6666.7,,,,,,
19.2,6893.3,,,,,,
19.25,6160,,,,,,
19.3,6626.7,,,,,,
19.35,6613.3,,,,,,
19.4,6813.3,,,,,,
19.45,6586.7,,,,,,
19.5,6893.3,,,,,,
19.55,6240,,,,,,
19.6,6653.3,,,,,,
19.65,6386.7,,,,,,
19.7,7173.3,,,,,,
19.75,6333.3,,,,,,
19.8,6693.3,,,,,,
19.85,6706.7,,,,,,
19.9,6453.3,,,,,,
19.95,6173.3,,,,,,
20,6520,,,,,,
20.05,6426.7,,,,,,
20.1,5853.3,,,,,,
20.15,6760,,,,,,
20.2,6280,,,,,,
20.25,7026.7,,,,,,
20.3,6706.7,,,,,,
20.35,6693.3,,,,,,
20.4,6453.3,,,,,,
20.45,6573.3,,,,,,
20.5,6386.7,,,,,,
20.55,6533.3,,,,,,
20.6,6093.3,,,,,,
20.65,6133.3,,,,,,
20.7,6733.3,,,,,,
20.75,6226.7,,,,,,
20.8,6160,,,,,,
20.85,6280,,,,,,
20.9,6413.3,,,,,,
20.95,6720,,,,,,
21,6386.7,,,,,,
21.05,6400,,,,,,
21.1,6440,,,,,,
21.15,6746.7,,,,,,
21.2,6626.7,,,,,,
21.25,6373.3,,,,,,
21.3,6546.7,,,,,,
21.35,6533.3,,,,,,
21.4,6240,,,,,,
21.45,6520,,,,,,
21.5,6360,,,,,,
21.55,6440,,,,,,
21.6,6200,,,,,,
21.65,6213.3,,,,,,
21.7,6573.3,,,,,,
21.75,6266.7,,,,,,
21.8,6053.3,,,,,,
21.85,6546.7,,,,,,
21.9,6360,,,,,,
21.95,6360,,,,,,
22,6226.7,,,,,,
22.05,6466.7,,,,,,
22.1,5880,,,,,,
22.15,6053.3,,,,,,
22.2,6226.7,,,,,,
22.25,6253.3,,,,,,
22.3,6053.3,,,,,,
22.35,5946.7,,,,,,
22.4,6840,,,,,,
22.45,5853.3,,,,,,
22.5,5600,,,,,,
22.55,5973.3,,,,,,
22.6,5720,,,,,,
22.65,5773.3,,,,,,
22.7,5933.3,,,,,,
22.75,5866.7,,,,,,
22.8,5933.3,,,,,,
22.85,6000,,,,,,
22.9,5906.7,,,,,,
22.95,5880,,,,,,
23,5640,,,,,,
23.05,6253.3,,,,,,
23.1,5826.7,,,,,,
23.15,6226.7,,,,,,
23.2,5920,,,,,,
23.25,5866.7,,,,,,
23.3,5800,,,,,,
23.35,5813.3,,,,,,
23.4,5906.7,,,,,,
23.45,6333.3,,,,,,
23.5,5720,,,,,,
23.55,5773.3,,,,,,
23.6,5720,,,,,,
23.65,5733.3,,,,,,
23.7,5853.3,,,,,,
23.75,5626.7,,,,,,
23.8,5400,,,,,,
23.85,5666.7,,,,,,
23.9,5893.3,,,,,,
23.95,5560,,,,,,
24,5533.3,,,,,,
24.05,5786.7,,,,,,
24.1,5546.7,,,,,,
24.15,5733.3,,,,,,
24.2,5693.3,,,,,,
24.25,5373.3,,,,,,
24.3,5293.3,,,,,,
24.35,5973.3,,,,,,
24.4,5746.7,,,,,,
24.45,5400,,,,,,
24.5,5426.7,,,,,,
24.55,5773.3,,,,,,
24.6,5400,,,,,,
24.65,5480,,,,,,
24.7,5386.7,,,,,,
24.75,5453.3,,,,,,
24.8,5426.7,,,,,,
24.85,5386.7,,,,,,
24.9,5226.7,,,,,,
24.95,5546.7,,,,,,
25,5026.7,,,,,,
25.05,5226.7,,,,,,
25.1,5400,,,,,,
25.15,5240,,,,,,
25.2,5333.3,,,,,,
25.25,5226.7,,,,,,
25.3,5493.3,,,,,,
25.35,4613.3,,,,,,
25.4,5266.7,,,,,,
25.45,5080,,,,,,
25.5,5373.3,,,,,,
25.55,5333.3,,,,,,
25.6,5106.7,,,,,,
25.65,5213.3,,,,,,
25.7,5093.3,,,,,,
25.75,5160,,,,,,
25.8,4840,,,,,,
25.85,5066.7,,,,,,
25.9,5253.3,,,,,,
25.95,5253.3,,,,,,
26,4920,,,,,,
26.05,4680,,,,,,
26.1,4693.3,,,,,,
26.15,5146.7,,,,,,
26.2,4853.3,,,,,,
26.25,4773.3,,,,,,
26.3,4840,,,,,,
26.35,4853.3,,,,,,
26.4,5066.7,,,,,,
26.45,4640,,,,,,
26.5,5053.3,,,,,,
26.55,4906.7,,,,,,
26.6,4813.3,,,,,,
26.65,5266.7,,,,,,
26.7,4680,,,,,,
26.75,5440,,,,,,
26.8,5053.3,,,,,,
26.85,4720,,,,,,
26.9,4800,,,,,,
26.95,5200,,,,,,
27,4973.3,,,,,,
27.05,4986.7,,,,,,
27.1,4773.3,,,,,,
27.15,4506.7,,,,,,
27.2,4693.3,,,,,,
27.25,4413.3,,,,,,
27.3,5373.3,,,,,,
27.35,6800,,,,,,
27.4,8306.7,,,,,,
27.45,10453,,,,,,
27.5,10787,,,,,,
27.55,9533.3,,,,,,
27.6,7400,,,,,,
27.65,6706.7,,,,,,
27.7,5666.7,,,,,,
27.75,4493.3,,,,,,
27.8,4800,,,,,,
27.85,4826.7,,,,,,
27.9,4573.3,,,,,,
27.95,4386.7,,,,,,
28,4613.3,,,,,,
28.05,4746.7,,,,,,
28.1,4653.3,,,,,,
28.15,4626.7,,,,,,
28.2,4720,,,,,,
28.25,4893.3,,,,,,
28.3,4773.3,,,,,,
28.35,4826.7,,,,,,
28.4,4786.7,,,,,,
28.45,4786.7,,,,,,
28.5,4106.7,,,,,,
28.55,4506.7,,,,,,
28.6,4306.7,,,,,,
28.65,4440,,,,,,
28.7,4320,,,,,,
28.75,4733.3,,,,,,
28.8,4466.7,,,,,,
28.85,4400,,,,,,
28.9,4240,,,,,,
28.95,4480,,,,,,
29,4573.3,,,,,,
29.05,4346.7,,,,,,
29.1,4346.7,,,,,,
29.15,4680,,,,,,
29.2,4520,,,,,,
29.25,4533.3,,,,,,
29.3,4626.7,,,,,,
29.35,4546.7,,,,,,
29.4,4120,,,,,,
29.45,4346.7,,,,,,
29.5,4146.7,,,,,,
29.55,3880,,,,,,
29.6,4413.3,,,,,,
29.65,4400,,,,,,
29.7,4306.7,,,,,,
29.75,4280,,,,,,
29.8,4306.7,,,,,,
29.85,4186.7,,,,,,
29.9,4613.3,,,,,,
29.95,4240,,,,,,
30,3960,,,,,,
30.05,4186.7,,,,,,
30.1,3733.3,,,,,,
30.15,4293.3,,,,,,
30.2,4466.7,,,,,,
30.25,4426.7,,,,,,
30.3,4040,,,,,,
30.35,3986.7,,,,,,
30.4,4053.3,,,,,,
30.45,4093.3,,,,,,
30.5,4000,,,,,,
30.55,4040,,,,,,
30.6,4053.3,,,,,,
30.65,4306.7,,,,,,
30.7,4373.3,,,,,,
30.75,4306.7,,,,,,
30.8,4333.3,,,,,,
30.85,4413.3,,,,,,
30.9,4466.7,,,,,,
30.95,4586.7,,,,,,
31,4573.3,,,,,,
31.05,4293.3,,,,,,
31.1,4493.3,,,,,,
31.15,4946.7,,,,,,
31.2,4666.7,,,,,,
31.25,4813.3,,,,,,
31.3,4586.7,,,,,,
31.35,4973.3,,,,,,
31.4,5600,,,,,,
31.45,5600,,,,,,
31.5,6333.3,,,,,,
31.55,7626.7,,,,,,
31.6,10547,,,,,,
31.65,18973,,,,,,
31.7,39320,,,,,,
31.75,77680,,,,,,
31.8,1.0128·10⁺⁰⁵,,,,,,
31.85,82160,,,,,,
31.9,49893,,,,,,
31.95,23413,,,,,,
32,13640,,,,,,
32.05,10453,,,,,,
32.1,7960,,,,,,
32.15,6160,,,,,,
32.2,5426.7,,,,,,
32.25,4813.3,,,,,,
32.3,4826.7,,,,,,
32.35,4560,,,,,,
32.4,4493.3,,,,,,
32.45,4426.7,,,,,,
32.5,4280,,,,,,
32.55,4520,,,,,,
32.6,4146.7,,,,,,
32.65,4146.7,,,,,,
32.7,4320,,,,,,
32.75,4466.7,,,,,,
32.8,4000,,,,,,
32.85,4053.3,,,,,,
32.9,4066.7,,,,,,
32.95,4213.3,,,,,,
33,3946.7,,,,,,
33.05,4173.3,,,,,,
33.1,3813.3,,,,,,
33.15,4240,,,,,,
33.2,3773.3,,,,,,
33.25,3840,,,,,,
33.3,3706.7,,,,,,
33.35,3866.7,,,,,,
33.4,3920,,,,,,
33.45,4053.3,,,,,,
33.5,3893.3,,,,,,
33.55,4040,,,,,,
33.6,3826.7,,,,,,
33.65,3893.3,,,,,,
33.7,3586.7,,,,,,
33.75,3920,,,,,,
33.8,3840,,,,,,
33.85,3653.3,,,,,,
33.9,3960,,,,,,
33.95,3906.7,,,,,,
34,3880,,,,,,
34.05,3893.3,,,,,,
34.1,3933.3,,,,,,
34.15,4080,,,,,,
34.2,4026.7,,,,,,
34.25,3813.3,,,,,,
34.3,3760,,,,,,
34.35,3813.3,,,,,,
34.4,3653.3,,,,,,
34.45,3760,,,,,,
34.5,3866.7,,,,,,
34.55,4000,,,,,,
34.6,3893.3,,,,,,
34.65,3666.7,,,,,,
34.7,4093.3,,,,,,
34.75,3906.7,,,,,,
34.8,3946.7,,,,,,
34.85,3893.3,,,,,,
34.9,3666.7,,,,,,
34.95,3733.3,,,,,,
35,3720,,,,,,
35.05,3626.7,,,,,,
35.1,3493.3,,,,,,
35.15,3640,,,,,,
35.2,3733.3,,,,,,
35.25,3120,,,,,,
35.3,3693.3,,,,,,
35.35,3813.3,,,,,,
35.4,3786.7,,,,,,
35.45,3640,,,,,,
35.5,3480,,,,,,
35.55,3480,,,,,,
35.6,3933.3,,,,,,
35.65,3706.7,,,,,,
35.7,3680,,,,,,
35.75,3626.7,,,,,,
35.8,3680,,,,,,
35.85,3760,,,,,,
35.9,3413.3,,,,,,
35.95,3880,,,,,,
36,3586.7,,,,,,
36.05,3626.7,,,,,,
36.1,3293.3,,,,,,
36.15,3640,,,,,,
36.2,3506.7,,,,,,
36.25,3653.3,,,,,,
36.3,3453.3,,,,,,
36.35,3786.7,,,,,,
36.4,3466.7,,,,,,
36.45,3373.3,,,,,,
36.5,3626.7,,,,,,
36.55,3786.7,,,,,,
36.6,3453.3,,,,,,
36.65,3813.3,,,,,,
36.7,3306.7,,,,,,
36.75,3760,,,,,,
36.8,3613.3,,,,,,
36.85,3346.7,,,,,,
36.9,3946.7,,,,,,
36.95,3386.7,,,,,,
37,3706.7,,,,,,
37.05,3600,,,,,,
37.1,3533.3,,,,,,
37.15,3400,,,,,,
37.2,3493.3,,,,,,
37.25,3440,,,,,,
37.3,3306.7,,,,,,
37.35,3466.7,,,,,,
37.4,3346.7,,,,,,
37.45,3626.7,,,,,,
37.5,3533.3,,,,,,
37.55,3813.3,,,,,,
37.6,3293.3,,,,,,
37.65,3440,,,,,,
37.7,3226.7,,,,,,
37.75,3293.3,,,,,,
37.8,3613.3,,,,,,
37.85,3453.3,,,,,,
37.9,3413.3,,,,,,
37.95,3706.7,,,,,,
38,3400,,,,,,
38.05,3400,,,,,,
38.1,3453.3,,,,,,
38.15,3440,,,,,,
38.2,3546.7,,,,,,
38.25,3706.7,,,,,,
38.3,3586.7,,,,,,
38.35,3466.7,,,,,,
38.4,3506.7,,,,,,
38.45,3453.3,,,,,,
38.5,3506.7,,,,,,
38.55,3346.7,,,,,,
38.6,3653.3,,,,,,
38.65,3386.7,,,,,,
38.7,3440,,,,,,
38.75,3546.7,,,,,,
38.8,3333.3,,,,,,
38.85,3226.7,,,,,,
38.9,3506.7,,,,,,
38.95,3346.7,,,,,,
39,3120,,,,,,
39.05,3280,,,,,,
39.1,3160,,,,,,
39.15,3453.3,,,,,,
39.2,3493.3,,,,,,
39.25,3493.3,,,,,,
39.3,3333.3,,,,,,
39.35,3573.3,,,,,,
39.4,3346.7,,,,,,
39.45,3066.7,,,,,,
39.5,3293.3,,,,,,
39.55,3546.7,,,,,,
39.6,3266.7,,,,,,
39.65,3400,,,,,,
39.7,3306.7,,,,,,
39.75,3413.3,,,,,,
39.8,3680,,,,,,
39.85,3160,,,,,,
39.9,3386.7,,,,,,
39.95,3440,,,,,,
40,3280,,,,,,
40.05,3266.7,,,,,,
40.1,3586.7,,,,,,
40.15,3440,,,,,,
40.2,3413.3,,,,,,
40.25,3213.3,,,,,,
40.3,3573.3,,,,,,
40.35,3320,,,,,,
40.4,3493.3,,,,,,
40.45,3173.3,,,,,,
40.5,3506.7,,,,,,
40.55,3440,,,,,,
40.6,3653.3,,,,,,
40.65,3080,,,,,,
40.7,3440,,,,,,
40.75,3493.3,,,,,,
40.8,3453.3,,,,,,
40.85,3040,,,,,,
40.9,3400,,,,,,
40.95,3426.7,,,,,,
41,3546.7,,,,,,
41.05,3386.7,,,,,,
41.1,3066.7,,,,,,
41.15,3266.7,,,,,,
41.2,3373.3,,,,,,
41.25,3213.3,,,,,,
41.3,3453.3,,,,,,
41.35,3106.7,,,,,,
41.4,3120,,,,,,
41.45,3253.3,,,,,,
41.5,3653.3,,,,,,
41.55,3080,,,,,,
41.6,2933.3,,,,,,
41.65,3213.3,,,,,,
41.7,3333.3,,,,,,
41.75,3226.7,,,,,,
41.8,2986.7,,,,,,
41.85,3280,,,,,,
41.9,3226.7,,,,,,
41.95,3346.7,,,,,,
42,3293.3,,,,,,
42.05,3440,,,,,,
42.1,3373.3,,,,,,
42.15,3293.3,,,,,,
42.2,3226.7,,,,,,
42.25,3320,,,,,,
42.3,3266.7,,,,,,
42.35,3360,,,,,,
42.4,3306.7,,,,,,
42.45,3120,,,,,,
42.5,3413.3,,,,,,
42.55,3413.3,,,,,,
42.6,3253.3,,,,,,
42.65,3386.7,,,,,,
42.7,3146.7,,,,,,
42.75,3320,,,,,,
42.8,3413.3,,,,,,
42.85,3333.3,,,,,,
42.9,3106.7,,,,,,
42.95,3173.3,,,,,,
43,3413.3,,,,,,
43.05,3440,,,,,,
43.1,3186.7,,,,,,
43.15,3066.7,,,,,,
43.2,3346.7,,,,,,
43.25,3280,,,,,,
43.3,3253.3,,,,,,
43.35,3400,,,,,,
43.4,3640,,,,,,
43.45,3546.7,,,,,,
43.5,3173.3,,,,,,
43.55,3253.3,,,,,,
43.6,3200,,,,,,
43.65,3373.3,,,,,,
43.7,3226.7,,,,,,
43.75,3213.3,,,,,,
43.8,3426.7,,,,,,
43.85,3613.3,,,,,,
43.9,2946.7,,,,,,
43.95,3560,,,,,,
44,3280,,,,,,
44.05,3426.7,,,,,,
44.1,3906.7,,,,,,
44.15,3586.7,,,,,,
44.2,3533.3,,,,,,
44.25,3466.7,,,,,,
44.3,3586.7,,,,,,
44.35,3533.3,,,,,,
44.4,3640,,,,,,
44.45,3346.7,,,,,,
44.5,3573.3,,,,,,
44.55,3626.7,,,,,,
44.6,3680,,,,,,
44.65,3560,,,,,,
44.7,3560,,,,,,
44.75,3746.7,,,,,,
44.8,3853.3,,,,,,
44.85,3466.7,,,,,,
44.9,3440,,,,,,
44.95,3693.3,,,,,,
45,3986.7,,,,,,
45.05,4146.7,,,,,,
45.1,4173.3,,,,,,
45.15,4440,,,,,,
45.2,4600,,,,,,
45.25,5093.3,,,,,,
45.3,6520,,,,,,
45.35,9013.3,,,,,,
45.4,15547,,,,,,
45.45,32227,,,,,,
45.5,49813,,,,,,
45.55,55480,,,,,,
45.6,56893,,,,,,
45.65,51813,,,,,,
45.7,37787,,,,,,
45.75,23507,,,,,,
45.8,15507,,,,,,
45.85,8826.7,,,,,,
45.9,5560,,,,,,
45.95,4813.3,,,,,,
46,4360,,,,,,
46.05,4106.7,,,,,,
46.1,3733.3,,,,,,
46.15,3840,,,,,,
46.2,3813.3,,,,,,
46.25,3920,,,,,,
46.3,3520,,,,,,
46.35,3773.3,,,,,,
46.4,3480,,,,,,
46.45,3746.7,,,,,,
46.5,3453.3,,,,,,
46.55,3533.3,,,,,,
46.6,3440,,,,,,
46.65,3760,,,,,,
46.7,3706.7,,,,,,
46.75,3346.7,,,,,,
46.8,3600,,,,,,
46.85,3533.3,,,,,,
46.9,3386.7,,,,,,
46.95,3453.3,,,,,,
47,3760,,,,,,
47.05,3400,,,,,,
47.1,3453.3,,,,,,
47.15,3680,,,,,,
47.2,3413.3,,,,,,
47.25,3026.7,,,,,,
47.3,3426.7,,,,,,
47.35,3133.3,,,,,,
47.4,3480,,,,,,
47.45,3346.7,,,,,,
47.5,3440,,,,,,
47.55,3293.3,,,,,,
47.6,3426.7,,,,,,
47.65,3373.3,,,,,,
47.7,3360,,,,,,
47.75,3480,,,,,,
47.8,3466.7,,,,,,
47.85,3226.7,,,,,,
47.9,3440,,,,,,
47.95,3320,,,,,,
48,3493.3,,,,,,
48.05,3360,,,,,,
48.1,3373.3,,,,,,
48.15,3440,,,,,,
48.2,3373.3,,,,,,
48.25,3453.3,,,,,,
48.3,3173.3,,,,,,
48.35,3306.7,,,,,,
48.4,3293.3,,,,,,
48.45,3240,,,,,,
48.5,3226.7,,,,,,
48.55,3640,,,,,,
48.6,3386.7,,,,,,
48.65,3333.3,,,,,,
48.7,3293.3,,,,,,
48.75,3440,,,,,,
48.8,3093.3,,,,,,
48.85,3506.7,,,,,,
48.9,3320,,,,,,
48.95,3346.7,,,,,,
49,3120,,,,,,
49.05,3386.7,,,,,,
49.1,3186.7,,,,,,
49.15,3000,,,,,,
49.2,3386.7,,,,,,
49.25,3306.7,,,,,,
49.3,3306.7,,,,,,
49.35,3413.3,,,,,,
49.4,3173.3,,,,,,
49.45,3693.3,,,,,,
49.5,3320,,,,,,
49.55,3160,,,,,,
49.6,3200,,,,,,
49.65,3240,,,,,,
49.7,3266.7,,,,,,
49.75,3346.7,,,,,,
49.8,3333.3,,,,,,
49.85,3266.7,,,,,,
49.9,3133.3,,,,,,
49.95,3066.7,,,,,,
50,3320,,,,,,
50.05,3293.3,,,,,,
50.1,3626.7,,,,,,
50.15,3453.3,,,,,,
50.2,3600,,,,,,
50.25,3133.3,,,,,,
50.3,3480,,,,,,
50.35,3213.3,,,,,,
50.4,3080,,,,,,
50.45,3440,,,,,,
50.5,3453.3,,,,,,
50.55,3200,,,,,,
50.6,3226.7,,,,,,
50.65,3226.7,,,,,,
50.7,3173.3,,,,,,
50.75,3253.3,,,,,,
50.8,3346.7,,,,,,
50.85,3160,,,,,,
50.9,3346.7,,,,,,
50.95,3293.3,,,,,,
51,3253.3,,,,,,
51.05,3186.7,,,,,,
51.1,3293.3,,,,,,
51.15,3133.3,,,,,,
51.2,3013.3,,,,,,
51.25,3146.7,,,,,,
51.3,3186.7,,,,,,
51.35,3320,,,,,,
51.4,3040,,,,,,
51.45,3466.7,,,,,,
51.5,3306.7,,,,,,
51.55,2973.3,,,,,,
51.6,3373.3,,,,,,
51.65,3373.3,,,,,,
51.7,3173.3,,,,,,
51.75,3093.3,,,,,,
51.8,2973.3,,,,,,
51.85,3173.3,,,,,,
51.9,3160,,,,,,
51.95,3346.7,,,,,,
52,3506.7,,,,,,
52.05,3293.3,,,,,,
52.1,3480,,,,,,
52.15,3173.3,,,,,,
52.2,3240,,,,,,
52.25,3066.7,,,,,,
52.3,3186.7,,,,,,
52.35,3160,,,,,,
52.4,3133.3,,,,,,
52.45,3360,,,,,,
52.5,3186.7,,,,,,
52.55,3213.3,,,,,,
52.6,3213.3,,,,,,
52.65,3160,,,,,,
52.7,2960,,,,,,
52.75,3480,,,,,,
52.8,3533.3,,,,,,
52.85,3133.3,,,,,,
52.9,3373.3,,,,,,
52.95,3213.3,,,,,,
53,3173.3,,,,,,
53.05,3186.7,,,,,,
53.1,2920,,,,,,
53.15,3106.7,,,,,,
53.2,2946.7,,,,,,
53.25,3093.3,,,,,,
53.3,3226.7,,,,,,
53.35,3333.3,,,,,,
53.4,3360,,,,,,
53.45,3253.3,,,,,,
53.5,3346.7,,,,,,
53.55,3360,,,,,,
53.6,3466.7,,,,,,
53.65,3266.7,,,,,,
53.7,3413.3,,,,,,
53.75,3373.3,,,,,,
53.8,3560,,,,,,
53.85,4000,,,,,,
53.9,4000,,,,,,
53.95,4586.7,,,,,,
54,4866.7,,,,,,
54.05,4866.7,,,,,,
54.1,4293.3,,,,,,
54.15,4080,,,,,,
54.2,3653.3,,,,,,
54.25,3586.7,,,,,,
54.3,3253.3,,,,,,
54.35,3213.3,,,,,,
54.4,3253.3,,,,,,
54.45,3200,,,,,,
54.5,3306.7,,,,,,
54.55,3440,,,,,,
54.6,3506.7,,,,,,
54.65,3293.3,,,,,,
54.7,3200,,,,,,
54.75,3280,,,,,,
54.8,3013.3,,,,,,
54.85,3386.7,,,,,,
54.9,3306.7,,,,,,
54.95,3080,,,,,,
55,3413.3,,,,,,
55.05,3693.3,,,,,,
55.1,3400,,,,,,
55.15,3280,,,,,,
55.2,3626.7,,,,,,
55.25,3413.3,,,,,,
55.3,3240,,,,,,
55.35,3240,,,,,,
55.4,3146.7,,,,,,
55.45,3626.7,,,,,,
55.5,3400,,,,,,
55.55,3106.7,,,,,,
55.6,3440,,,,,,
55.65,3333.3,,,,,,
55.7,3240,,,,,,
55.75,3506.7,,,,,,
55.8,3586.7,,,,,,
55.85,3306.7,,,,,,
55.9,3026.7,,,,,,
55.95,3253.3,,,,,,
56,3240,,,,,,
56.05,3240,,,,,,
56.1,3613.3,,,,,,
56.15,3840,,,,,,
56.2,3653.3,,,,,,
56.25,4160,,,,,,
56.3,4520,,,,,,
56.35,4853.3,,,,,,
56.4,6533.3,,,,,,
56.45,10213,,,,,,
56.5,15067,,,,,,
56.55,18787,,,,,,
56.6,18907,,,,,,
56.65,17200,,,,,,
56.7,16467,,,,,,
56.75,12840,,,,,,
56.8,8746.7,,,,,,
56.85,7200,,,,,,
56.9,5533.3,,,,,,
56.95,4013.3,,,,,,
57,3413.3,,,,,,
57.05,3480,,,,,,
57.1,3466.7,,,,,,
57.15,3586.7,,,,,,
57.2,3266.7,,,,,,
57.25,3493.3,,,,,,
57.3,3373.3,,,,,,
57.35,3253.3,,,,,,
57.4,2906.7,,,,,,
57.45,3453.3,,,,,,
57.5,3200,,,,,,
57.55,3453.3,,,,,,
57.6,3306.7,,,,,,
57.65,3466.7,,,,,,
57.7,3266.7,,,,,,
57.75,3440,,,,,,
57.8,3133.3,,,,,,
57.85,3093.3,,,,,,
57.9,3600,,,,,,
57.95,3253.3,,,,,,
58,3520,,,,,,
58.05,3213.3,,,,,,
58.1,3360,,,,,,
58.15,3093.3,,,,,,
58.2,3066.7,,,,,,
58.25,3173.3,,,,,,
58.3,2973.3,,,,,,
58.35,3040,,,,,,
58.4,3013.3,,,,,,
58.45,3066.7,,,,,,
58.5,2853.3,,,,,,
58.55,3066.7,,,,,,
58.6,3040,,,,,,
58.65,3080,,,,,,
58.7,3320,,,,,,
58.75,3080,,,,,,
58.8,3333.3,,,,,,
58.85,3440,,,,,,
58.9,3213.3,,,,,,
58.95,3200,,,,,,
59,3106.7,,,,,,
59.05,3546.7,,,,,,
59.1,2933.3,,,,,,
59.15,3066.7,,,,,,
59.2,2933.3,,,,,,
59.25,3400,,,,,,
59.3,3120,,,,,,
59.35,3080,,,,,,
59.4,3173.3,,,,,,
59.45,3053.3,,,,,,
59.5,3266.7,,,,,,
59.55,3360,,,,,,
59.6,3213.3,,,,,,
59.65,3133.3,,,,,,
59.7,3106.7,,,,,,
59.75,3026.7,,,,,,
59.8,3000,,,,,,
59.85,2960,,,,,,
59.9,3093.3,,,,,,
59.95,3053.3,,,,,,
60,3186.7,,,,,,
60.05,2986.7,,,,,,
60.1,2933.3,,,,,,
60.15,3133.3,,,,,,
60.2,3200,,,,,,
60.25,2946.7,,,,,,
60.3,3280,,,,,,
60.35,2986.7,,,,,,
60.4,2973.3,,,,,,
60.45,3306.7,,,,,,
60.5,3200,,,,,,
60.55,3053.3,,,,,,
60.6,2986.7,,,,,,
60.65,3053.3,,,,,,
60.7,3000,,,,,,
60.75,3093.3,,,,,,
60.8,3053.3,,,,,,
60.85,2973.3,,,,,,
60.9,2946.7,,,,,,
60.95,3266.7,,,,,,
61,2946.7,,,,,,
61.05,3013.3,,,,,,
61.1,2946.7,,,,,,
61.15,2866.7,,,,,,
61.2,3093.3,,,,,,
61.25,3120,,,,,,
61.3,3266.7,,,,,,
61.35,2973.3,,,,,,
61.4,2893.3,,,,,,
61.45,3000,,,,,,
61.5,2920,,,,,,
61.55,3106.7,,,,,,
61.6,3106.7,,,,,,
61.65,2813.3,,,,,,
61.7,2893.3,,,,,,
61.75,2826.7,,,,,,
61.8,3293.3,,,,,,
61.85,3200,,,,,,
61.9,2840,,,,,,
61.95,3080,,,,,,
62,2880,,,,,,
62.05,2946.7,,,,,,
62.1,2960,,,,,,
62.15,3186.7,,,,,,
62.2,2960,,,,,,
62.25,2786.7,,,,,,
62.3,2906.7,,,,,,
62.35,3026.7,,,,,,
62.4,3053.3,,,,,,
62.45,2933.3,,,,,,
62.5,2960,,,,,,
62.55,2906.7,,,,,,
62.6,3013.3,,,,,,
62.65,3386.7,,,,,,
62.7,3000,,,,,,
62.75,2973.3,,,,,,
62.8,2920,,,,,,
62.85,3080,,,,,,
62.9,3226.7,,,,,,
62.95,3000,,,,,,
63,3160,,,,,,
63.05,2893.3,,,,,,
63.1,3040,,,,,,
63.15,3120,,,,,,
63.2,2986.7,,,,,,
63.25,2733.3,,,,,,
63.3,3066.7,,,,,,
63.35,3093.3,,,,,,
63.4,3040,,,,,,
63.45,3173.3,,,,,,
63.5,2866.7,,,,,,
63.55,2880,,,,,,
63.6,2973.3,,,,,,
63.65,2866.7,,,,,,
63.7,2986.7,,,,,,
63.75,2973.3,,,,,,
63.8,2706.7,,,,,,
63.85,2973.3,,,,,,
63.9,2893.3,,,,,,
63.95,2880,,,,,,
64,2613.3,,,,,,
64.05,2933.3,,,,,,
64.1,3040,,,,,,
64.15,2746.7,,,,,,
64.2,2893.3,,,,,,
64.25,2880,,,,,,
64.3,2773.3,,,,,,
64.35,3000,,,,,,
64.4,2800,,,,,,
64.45,2626.7,,,,,,
64.5,3306.7,,,,,,
64.55,3066.7,,,,,,
64.6,2826.7,,,,,,
64.65,2866.7,,,,,,
64.7,2706.7,,,,,,
64.75,2973.3,,,,,,
64.8,3240,,,,,,
64.85,2906.7,,,,,,
64.9,3320,,,,,,
64.95,2813.3,,,,,,
65,2946.7,,,,,,
65.05,2720,,,,,,
65.1,2853.3,,,,,,
65.15,3053.3,,,,,,
65.2,2786.7,,,,,,
65.25,3000,,,,,,
65.3,2773.3,,,,,,
65.35,3066.7,,,,,,
65.4,3026.7,,,,,,
65.45,3120,,,,,,
65.5,3093.3,,,,,,
65.55,2880,,,,,,
65.6,2840,,,,,,
65.65,2946.7,,,,,,
65.7,2946.7,,,,,,
65.75,3266.7,,,,,,
65.8,3106.7,,,,,,
65.85,3373.3,,,,,,
65.9,2786.7,,,,,,
65.95,3000,,,,,,
66,3040,,,,,,
66.05,3506.7,,,,,,
66.1,3613.3,,,,,,
66.15,4293.3,,,,,,
66.2,6306.7,,,,,,
66.25,9333.3,,,,,,
66.3,13120,,,,,,
66.35,10093,,,,,,
66.4,7293.3,,,,,,
66.45,7893.3,,,,,,
66.5,8893.3,,,,,,
66.55,5813.3,,,,,,
66.6,3893.3,,,,,,
66.65,3306.7,,,,,,
66.7,3306.7,,,,,,
66.75,3293.3,,,,,,
66.8,3080,,,,,,
66.85,3373.3,,,,,,
66.9,2826.7,,,,,,
66.95,2960,,,,,,
67,3053.3,,,,,,
67.05,3026.7,,,,,,
67.1,2853.3,,,,,,
67.15,3026.7,,,,,,
67.2,2773.3,,,,,,
67.25,2533.3,,,,,,
67.3,2826.7,,,,,,
67.35,3000,,,,,,
67.4,2760,,,,,,
67.45,3013.3,,,,,,
67.5,3146.7,,,,,,
67.55,2893.3,,,,,,
67.6,2906.7,,,,,,
67.65,2613.3,,,,,,
67.7,2773.3,,,,,,
67.75,2773.3,,,,,,
67.8,2826.7,,,,,,
67.85,2986.7,,,,,,
67.9,2800,,,,,,
67.95,2680,,,,,,
68,2773.3,,,,,,
68.05,2920,,,,,,
68.1,2826.7,,,,,,
68.15,2786.7,,,,,,
68.2,2933.3,,,,,,
68.25,2680,,,,,,
68.3,2773.3,,,,,,
68.35,2880,,,,,,
68.4,3173.3,,,,,,
68.45,2840,,,,,,
68.5,3106.7,,,,,,
68.55,2546.7,,,,,,
68.6,2973.3,,,,,,
68.65,2960,,,,,,
68.7,3013.3,,,,,,
68.75,2813.3,,,,,,
68.8,2746.7,,,,,,
68.85,2826.7,,,,,,
68.9,2733.3,,,,,,
68.95,2853.3,,,,,,
69,2986.7,,,,,,
69.05,2573.3,,,,,,
69.1,2893.3,,,,,,
69.15,2720,,,,,,
69.2,2586.7,,,,,,
69.25,3133.3,,,,,,
69.3,2906.7,,,,,,
69.35,2733.3,,,,,,
69.4,2720,,,,,,
69.45,3106.7,,,,,,
69.5,2586.7,,,,,,
69.55,2760,,,,,,
69.6,2640,,,,,,
69.65,2760,,,,,,
69.7,2866.7,,,,,,
69.75,2746.7,,,,,,
69.8,2720,,,,,,
69.85,2933.3,,,,,,
69.9,2933.3,,,,,,
69.95,2773.3,,,,,,
70,2840,,,,,,
70.05,2760,,,,,,
70.1,2653.3,,,,,,
70.15,2800,,,,,,
70.2,2933.3,,,,,,
70.25,2960,,,,,,
70.3,3000,,,,,,
70.35,2973.3,,,,,,
70.4,2680,,,,,,
70.45,2773.3,,,,,,
70.5,2453.3,,,,,,
70.55,2826.7,,,,,,
70.6,2586.7,,,,,,
70.65,3093.3,,,,,,
70.7,2786.7,,,,,,
70.75,2600,,,,,,
70.8,2920,,,,,,
70.85,2840,,,,,,
70.9,2493.3,,,,,,
70.95,2693.3,,,,,,
71,2840,,,,,,
71.05,2813.3,,,,,,
71.1,2720,,,,,,
71.15,2613.3,,,,,,
71.2,2786.7,,,,,,
71.25,2946.7,,,,,,
71.3,2653.3,,,,,,
71.35,2573.3,,,,,,
71.4,2960,,,,,,
71.45,2946.7,,,,,,
71.5,2533.3,,,,,,
71.55,3026.7,,,,,,
71.6,2773.3,,,,,,
71.65,2466.7,,,,,,
71.7,2853.3,,,,,,
71.75,2986.7,,,,,,
71.8,2640,,,,,,
71.85,2520,,,,,,
71.9,2853.3,,,,,,
71.95,2840,,,,,,
72,2706.7,,,,,,
72.05,2866.7,,,,,,
72.1,2626.7,,,,,,
72.15,2733.3,,,,,,
72.2,2893.3,,,,,,
72.25,2666.7,,,,,,
72.3,2666.7,,,,,,
72.35,2666.7,,,,,,
72.4,2720,,,,,,
72.45,2800,,,,,,
72.5,2946.7,,,,,,
72.55,2800,,,,,,
72.6,2960,,,,,,
72.65,2826.7,,,,,,
72.7,2973.3,,,,,,
72.75,2760,,,,,,
72.8,2920,,,,,,
72.85,3013.3,,,,,,
72.9,2920,,,,,,
72.95,2746.7,,,,,,
73,3066.7,,,,,,
73.05,3506.7,,,,,,
73.1,4440,,,,,,
73.15,4333.3,,,,,,
73.2,4240,,,,,,
73.25,3773.3,,,,,,
73.3,3253.3,,,,,,
73.35,3453.3,,,,,,
73.4,3466.7,,,,,,
73.45,3120,,,,,,
73.5,2933.3,,,,,,
73.55,2960,,,,,,
73.6,2853.3,,,,,,
73.65,2773.3,,,,,,
73.7,2680,,,,,,
73.75,2533.3,,,,,,
73.8,2666.7,,,,,,
73.85,3013.3,,,,,,
73.9,2973.3,,,,,,
73.95,2600,,,,,,
74,2720,,,,,,
74.05,2640,,,,,,
74.1,2880,,,,,,
74.15,2800,,,,,,
74.2,2720,,,,,,
74.25,2640,,,,,,
74.3,2546.7,,,,,,
74.35,2813.3,,,,,,
74.4,2866.7,,,,,,
74.45,2973.3,,,,,,
74.5,2800,,,,,,
74.55,2773.3,,,,,,
74.6,2800,,,,,,
74.65,2906.7,,,,,,
74.7,2600,,,,,,
74.75,2733.3,,,,,,
74.8,3013.3,,,,,,
74.85,3000,,,,,,
74.9,3080,,,,,,
74.95,3546.7,,,,,,
75,3560,,,,,,
75.05,3920,,,,,,
75.1,3626.7,,,,,,
75.15,5320,,,,,,
75.2,9413.3,,,,,,
75.25,17040,,,,,,
75.3,25267,,,,,,
75.35,24160,,,,,,
75.4,18547,,,,,,
75.45,14693,,,,,,
75.5,15400,,,,,,
75.55,15480,,,,,,
75.6,11853,,,,,,
75.65,7800,,,,,,
75.7,5413.3,,,,,,
75.75,3920,,,,,,
75.8,3546.7,,,,,,
75.85,3413.3,,,,,,
75.9,3480,,,,,,
75.95,2800,,,,,,
76,2773.3,,,,,,
76.05,2720,,,,,,
76.1,2626.7,,,,,,
76.15,2600,,,,,,
76.2,2573.3,,,,,,
76.25,2733.3,,,,,,
76.3,2533.3,,,,,,
76.35,2680,,,,,,
76.4,2680,,,,,,
76.45,2746.7,,,,,,
76.5,2600,,,,,,
76.55,2720,,,,,,
76.6,2493.3,,,,,,
76.65,2706.7,,,,,,
76.7,2866.7,,,,,,
76.75,2520,,,,,,
76.8,2813.3,,,,,,
76.85,2453.3,,,,,,
76.9,2613.3,,,,,,
76.95,2760,,,,,,
77,2680,,,,,,
77.05,3026.7,,,,,,
77.1,2413.3,,,,,,
77.15,2666.7,,,,,,
77.2,2506.7,,,,,,
77.25,2826.7,,,,,,
77.3,2533.3,,,,,,
77.35,2720,,,,,,
77.4,2453.3,,,,,,
77.45,2640,,,,,,
77.5,2386.7,,,,,,
77.55,2480,,,,,,
77.6,2560,,,,,,
77.65,2613.3,,,,,,
77.7,2600,,,,,,
77.75,2413.3,,,,,,
77.8,2600,,,,,,
77.85,2546.7,,,,,,
77.9,2600,,,,,,
77.95,2293.3,,,,,,
78,2226.7,,,,,,
78.05,2493.3,,,,,,
78.1,2400,,,,,,
78.15,2320,,,,,,
78.2,2360,,,,,,
78.25,2400,,,,,,
78.3,2053.3,,,,,,
78.35,2333.3,,,,,,
78.4,2400,,,,,,
78.45,2386.7,,,,,,
78.5,2413.3,,,,,,
78.55,2293.3,,,,,,
78.6,2426.7,,,,,,
78.65,2466.7,,,,,,
78.7,2306.7,,,,,,
78.75,2413.3,,,,,,
78.8,2533.3,,,,,,
78.85,2226.7,,,,,,
78.9,2506.7,,,,,,
78.95,2466.7,,,,,,
79,2173.3,,,,,,
79.05,2306.7,,,,,,
79.1,2173.3,,,,,,
79.15,2266.7,,,,,,
79.2,2346.7,,,,,,
79.25,2626.7,,,,,,
79.3,2373.3,,,,,,
79.35,2440,,,,,,
79.4,2400,,,,,,
79.45,2600,,,,,,
79.5,2200,,,,,,
79.55,2426.7,,,,,,
79.6,2320,,,,,,
79.65,2346.7,,,,,,
79.7,2346.7,,,,,,
79.75,2146.7,,,,,,
79.8,2080,,,,,,
79.85,2453.3,,,,,,
79.9,2240,,,,,,
79.95,2373.3,,,,,,
80,2333.3,,,,,,